Folder: SiO2-SiV/hyperspectra imaging/process_test/raman fit plot

File: secondRaman - EL2-98.csv
Index,I,W
356,0,580.881
367,0,581.832
378,0,582.782
389,0,583.732
400,0,584.683
411,0,585.633
422,0,586.583
433,0,587.533
444,0,588.482
455,0,589.432
466,0,590.382
477,0,591.331
488,0,592.281
499,0,593.23
510,0,594.179
521,0,595.128
532,0,596.077
543,0,597.026
554,0,597.975
565,0,598.924
576,0,599.872
587,70,600.821
598,90,601.769
609,158,602.717
620,203,603.666
631,229,604.614
642,288,605.562
653,405,606.51
664,456,607.457
675,559,608.405
686,592,609.353
697,651,610.3
708,655,611.248
719,863,612.195
730,1141,613.142
741,1062,614.089
752,915,615.036
763,559,615.983
774,513,616.93
785,417,617.876
796,388,618.823
807,390,619.769
818,397,620.716
829,101,621.662
840,0,622.608
851,0,623.554
862,0,624.5
873,0,625.446
884,0,626.391
895,0,627.337
906,0,628.282
917,0,629.228
928,0,630.173
939,0,631.118
950,0,632.063
961,0,633.008
972,0,633.953
983,0,634.898
994,0,635.842
1005,0,636.787
1016,0,637.731
1027,0,638.676
1038,0,639.62
1049,0,640.564
1060,0,641.508
1071,0,642.452
1082,0,643.395
1093,0,644.339
1104,0,645.283
1115,0,646.226
1126,0,647.169
1137,0,648.112
1148,0,649.056
1159,0,649.998
1170,0,650.941
1181,0,651.884
1192,0,652.827
1203,0,653.769
1214,0,654.712
1225,0,655.654
1236,0,656.596
1247,0,657.538
1258,0,658.48
1269,0,659.422
1280,0,660.364
1291,0,661.305
1302,0,662.247
1313,0,663.151
1324,0,664.101
1335,0,665.051
1346,0,666.001
1357,0,666.95
1368,0,667.9
1379,0,668.85
1390,0,669.799
1401,0,670.748
1412,0,671.698
1423,0,672.647
1434,0,673.596
1445,0,674.545
1456,0,675.494
1467,0,676.442
1478,0,677.391
1489,0,678.34
1500,0,679.288
1511,0,680.236
1522,0,681.185
1533,0,682.133
1544,0,683.081
1555,0,684.029
1566,0,684.977
1577,0,685.925
1588,0,686.872
1599,0,687.82
1610,0,688.767
1621,0,689.715
1632,0,690.662
1643,0,691.609
1654,0,692.556
1665,0,693.503
1676,0,694.45
1687,0,695.397
1698,0,696.344
1709,0,697.29
1720,0,698.237
1731,0,699.183
1742,0,700.129
1753,0,701.075
1764,0,702.022
1775,0,702.968
1786,0,703.913
1797,0,704.859
1808,0,705.805
1819,0,706.75
1830,0,707.696
1841,0,708.641
1852,0,709.586
1863,0,710.531
1874,0,711.476
1885,0,712.421
1896,0,713.366
1907,0,714.311
1918,0,715.256
1929,0,716.2
1940,0,717.144
1951,0,718.089
1962,0,719.033
1973,0,719.977
1984,0,720.921
1995,0,721.865
2006,0,722.808
2017,0,723.752
2028,0,724.696
2039,0,725.639
2050,0,726.582
2061,0,727.526
2072,0,728.469
2083,0,729.412
2094,0,730.354
2105,0,731.297
2116,0,732.24
2127,0,733.182
2138,0,734.125
2149,0,735.067
2160,0,736.009
2171,0,736.951
2182,0,737.893
2193,0,738.835
2204,0,739.777
2215,0,740.719
2226,0,741.66
2237,0,742.602
2248,0,743.543
2259,0,744.484
2270,0,745.425
2281,0,746.366
2292,0,747.307
2303,0,748.248
2314,0,749.188
2325,0,750.129
2336,0,751.069
2347,0,752.01
2358,0,752.95
2369,0,753.89
2380,0,754.83
2391,0,755.77
2402,0,756.709
2413,0,757.649
2424,0,758.588
2435,0,759.528
2446,0,760.467
2457,0,761.406
2468,0,762.345
2479,0,763.284
2490,0,764.223
2501,0,765.161
2512,0,766.1
2523,0,767.038
2534,0,767.977
2545,0,768.915
2556,0,769.853
2567,0,770.791
2578,0,771.729
2589,0,772.587
2600,0,773.531
2611,0,774.475
2622,0,775.418
2633,0,776.362
2644,0,777.306
2655,0,778.249
2666,0,779.193
2677,0,780.136
2688,0,781.079
2699,0,782.022
2710,0,782.965
2721,0,783.908
2732,0,784.851
2743,0,785.794
2754,0,786.736
2765,0,787.678
2776,0,788.621
2787,0,789.563
2798,0,790.505
2809,0,791.447
2820,0,792.389
2831,0,793.331
2842,0,794.272
2853,0,795.214
2864,0,796.155
2875,0,797.097
2886,0,798.038
2897,0,798.979
2908,0,799.92
2919,0,800.861
2930,0,801.802
2941,0,802.743
2952,0,803.683
2963,0,804.624
2974,0,805.564
2985,0,806.504
2996,0,807.444
3007,0,808.384
3018,0,809.324
3029,0,810.264
3040,0,811.203
3051,0,812.143
3062,0,813.082
3073,0,814.022
3084,0,814.961
3095,0,815.9
3106,0,816.839
3117,0,817.778
3128,0,818.717
3139,0,819.655
3150,0,820.594
3161,0,821.532
3172,0,822.47
3183,0,823.408
3194,0,824.346
3205,0,825.284
3216,0,826.222
3227,0,827.16
3238,0,828.097
3249,0,829.035
3260,0,829.972
3271,0,830.909
3282,0,831.846
3293,0,832.783
3304,0,833.72
3315,0,834.657
3326,0,835.594
3337,0,836.53
3348,0,837.466
3359,0,838.403
3370,0,839.339
3381,0,840.275
3392,0,841.211
3403,0,842.146
3414,0,843.082
3425,0,844.018
3436,0,844.953
3445,0,845.718